Folder: sutter-fella-group/Old Code to recycle/reference

File: MAPbI3 Ref XRD Cubic.csv
No.,2Theta [°],d-spacing [Å],Int.,F,h,k,l,Mult.
2,14.021,6.3115,3711034.32,118.87,0,1,0,4
7,28.257,3.1558,2828046.64,214.49,0,2,0,4
13,40.373,2.2323,2050498.94,190.4,0,2,2,8
1,14.01,6.3161,1939879.16,121.45,0,0,1,2
6,28.236,3.1581,1346337.48,209.13,0,0,2,2
8,31.656,2.8242,1252993.7,114.02,0,1,2,8
9,31.67,2.823,1192706.29,111.29,0,2,1,8
10,31.674,2.8226,1163592.87,109.95,1,2,0,8
16,42.941,2.1045,1102711.67,105.78,1,2,2,16
24,50.008,1.8224,1102288.48,177.7,2,2,2,8
14,40.388,2.2315,1056976.83,193.4,2,2,0,4
5,24.402,3.6448,837686.84,70.69,1,1,1,8
53,73.43,1.2885,708783.82,153.21,2,4,2,16
17,42.952,2.104,537005.65,104.42,2,2,1,8
46,66.16,1.4113,482933.82,160.95,2,4,0,8
45,66.149,1.4115,477477.64,160.01,0,4,2,8
44,66.117,1.4121,467479.81,158.25,0,2,4,8
35,60.414,1.531,408946.97,94.82,2,3,2,16
32,58.443,1.5779,350927.09,169.26,0,4,0,4
52,73.399,1.289,347973.4,151.76,2,2,4,8
25,52.185,1.7514,330235.8,102.1,0,2,3,8
3,19.871,4.4645,322403.23,35.41,0,1,1,8
26,52.201,1.7509,314764.33,99.71,0,3,2,8
27,52.214,1.7505,306893.2,98.49,2,3,0,8
47,67.971,1.378,292673.12,91.16,1,2,4,16
48,68.003,1.3775,289365.66,90.68,1,4,2,16
49,68.011,1.3773,288174.96,90.51,2,4,1,16
18,42.956,2.1038,264357.34,103.62,0,3,0,4
77,87.284,1.1161,230894.15,140.9,0,4,4,8
23,47.752,1.9031,217585.63,52.97,1,3,1,16
34,60.4,1.5314,212824.19,96.71,2,2,3,8
33,60.38,1.5318,208453.55,95.68,0,1,4,8
36,60.423,1.5308,202840.53,94.46,0,4,1,8
37,60.426,1.5308,201220.42,94.08,1,4,0,8
70,82.157,1.1723,181559.94,85.16,2,4,3,16
4,19.878,4.4629,178191.79,37.25,1,1,0,4
69,82.14,1.1725,176789.59,84.02,2,3,4,16
72,82.17,1.1721,176326.03,83.93,3,4,2,16
31,58.396,1.579,168490.95,165.71,0,0,4,2
80,88.992,1.0991,150218.3,81.1,1,4,4,16
81,89.022,1.0988,150213.79,81.11,2,5,2,16
12,34.785,2.577,149409.14,30.84,1,2,1,16
15,42.923,2.1054,146584.71,109.03,0,0,3,2
78,87.324,1.1157,118016.63,142.49,4,4,0,4
56,75.19,1.2626,113096.67,88.47,0,4,3,8
55,75.172,1.2629,110254.8,87.33,0,3,4,8
58,75.213,1.2623,108820.45,86.8,3,4,0,8
22,47.725,1.9041,95407.32,49.57,1,1,3,8
68,82.117,1.1728,94172.35,86.7,0,2,5,8
71,82.17,1.1721,88163.01,83.93,0,5,2,8
73,82.18,1.172,87769.15,83.75,2,5,0,8
79,88.97,1.0993,79985.38,83.68,2,2,5,8
42,64.255,1.4485,76530.02,43.9,1,3,3,16
82,89.029,1.0987,75194.94,81.16,4,4,1,8
11,34.772,2.5779,68921.47,29.61,1,1,2,8
57,75.213,1.2623,54410.23,86.8,0,5,0,4
67,78.715,1.2147,44819.27,40.96,1,5,1,16
29,54.331,1.6872,41279.32,26.72,1,3,2,16
43,64.277,1.448,41261.44,45.61,3,3,1,8
30,54.34,1.6869,40405.22,26.44,2,3,1,16
28,54.316,1.6876,37642.8,25.51,1,2,3,16
21,45.405,1.9959,35759.23,28.69,1,3,0,8
20,45.402,1.996,34618.86,28.22,0,3,1,8
19,45.374,1.9972,29755.56,26.15,0,1,3,8
54,75.149,1.2632,29377.07,90.13,0,0,5,2
40,62.367,1.4877,26694.05,25.1,1,4,1,16
66,78.695,1.2149,21242.34,39.87,3,3,3,8
65,78.654,1.2155,19900.19,38.58,1,1,5,8
50,69.819,1.346,19293.28,24.06,2,3,3,16
60,76.931,1.2383,18327.13,25.7,1,3,4,16
38,62.325,1.4886,15826.9,27.31,1,1,4,8
61,76.949,1.2381,15178.02,23.39,1,4,3,16
63,76.969,1.2378,14846.45,23.14,3,4,1,16
74,83.837,1.153,14435.14,24.34,1,2,5,16
39,62.345,1.4882,13023.7,24.78,0,3,3,8
75,83.89,1.1524,12906.1,23.02,1,5,2,16
76,83.897,1.1523,12217.16,22.4,2,5,1,16
51,69.832,1.3458,10079.34,24.6,3,3,2,8
59,76.908,1.2387,8667.45,24.98,0,1,5,8
64,76.972,1.2378,7430.53,23.15,1,5,0,8
62,76.969,1.2378,7423.23,23.14,0,5,1,8
41,62.37,1.4876,6740,25.22,3,3,0,4

File: MAPbI3 Ref XRD.csv
No.,2Theta [°],d-spacing [Å],Int.,F,h,k,l,Mult.
2,14.143,6.2572,53622494.62,455.88,1,1,0,4
8,28.507,3.1286,37316627.77,786.5,2,2,0,4
1,13.999,6.321,31505234.01,489.07,0,0,2,2
16,40.54,2.2234,27561501.34,701.27,2,2,4,8
12,31.957,2.7983,22617669.86,489.39,1,3,0,8
7,28.213,3.1605,21687667.7,838.65,0,0,4,2
22,43.144,2.0951,21036660.57,464.46,1,3,4,16
10,31.692,2.8211,18291994.44,436.18,1,1,4,8
11,31.891,2.8039,13641120.46,379.22,2,2,2,8
31,50.304,1.8124,12253399.25,596.46,0,4,4,8
17,40.754,2.2122,11576459.79,646.53,0,4,0,4
6,24.539,3.6247,9816427.05,243.43,0,2,2,8
5,23.538,3.7767,9171220.93,159.27,1,2,1,16
69,68.536,1.3681,9060511.76,511.57,3,5,4,16
51,61.006,1.5176,6375083.15,535.24,3,5,0,8
61,66.201,1.4105,6355805.54,584.28,2,2,8,8
20,42.698,2.1159,5999619.15,245.17,1,4,1,16
66,68.085,1.376,5541740.17,397.35,1,3,8,16
77,74.039,1.2794,4831534.21,403.13,2,6,4,16
120,89.456,1.0946,4683670.81,453.85,3,5,8,16
49,60.846,1.5212,4615456.11,321.09,1,5,4,16
9,30.975,2.8848,4524476.6,149.66,1,2,3,16
14,35.04,2.5588,4442902.52,169.51,1,3,2,16
28,47.504,1.9124,4387168.46,236.46,1,4,3,16
4,20.052,4.4245,4371462.92,186.16,0,2,0,4
23,43.296,2.0881,4242383.5,296.14,0,4,2,8
62,66.657,1.402,4093366.21,472.33,4,4,4,8
76,73.603,1.2859,3912916.15,510.23,0,4,8,8
105,82.91,1.1635,3741109.9,388.98,1,7,4,16
34,52.306,1.7476,3707246.68,342.99,2,2,6,8
3,19.95,4.4469,3661500.23,119.84,1,1,2,8
36,52.702,1.7354,3455678.44,334,1,5,0,8
63,66.809,1.3991,3252353.43,422.04,2,6,0,8
38,54.684,1.6771,3166004.55,235.76,2,4,4,16
46,60.365,1.5321,3011671.29,363.58,1,1,8,8
45,59,1.5643,2973692.26,498,4,4,0,4
44,58.347,1.5803,2744076.14,668.12,0,0,8,2
54,62.934,1.4757,2732774.92,256.47,3,5,2,16
58,64.416,1.4452,2716390.12,262.28,1,6,1,16
27,45.821,1.9787,2685098.38,251.15,2,4,0,8
41,56.17,1.6362,2650743.13,222.4,1,4,5,16
35,52.526,1.7408,2470715.14,281.35,3,3,4,8
84,75.981,1.2514,2313971.72,403.93,1,7,0,8
67,68.134,1.3751,2300120.36,256.19,1,6,3,16
21,42.888,2.107,2222172.18,424.12,0,0,6,2
109,84.657,1.1439,2165536.24,299.94,4,6,4,16
33,52.143,1.7527,2128311.79,183.11,3,4,1,16
102,82.488,1.1684,2049859.7,286.93,1,5,8,16
24,43.347,2.0857,2030658.8,290.14,3,3,0,4
113,87.718,1.1117,2011365.13,416.88,4,4,8,8
13,34.858,2.5718,1958892.98,158.27,0,2,4,8
18,42.389,2.1307,1889771.62,136.48,1,2,5,16
15,37.292,2.4093,1745278.36,113.75,2,3,1,16
80,75.308,1.2609,1733389.79,245.25,1,6,5,16
42,56.338,1.6317,1684023.04,177.86,3,4,3,16
48,60.646,1.5257,1681266.45,273.06,0,4,6,8
88,77.443,1.2314,1537039.48,236.66,3,5,6,16
64,67.758,1.3818,1507435.52,206.2,1,4,7,16
72,70.391,1.3365,1503430.41,302.83,0,6,4,8
91,77.765,1.2271,1319071.88,311.13,4,6,0,8
111,85.675,1.1329,1268549.43,231.19,1,6,7,16
75,71.905,1.312,1262670.59,200.42,3,6,1,16
87,77.193,1.2348,1248465.48,212.7,2,4,8,16
37,54.47,1.6832,1232453.48,146.44,1,3,6,16
29,47.773,1.9023,1200611.08,176.06,0,2,6,8
19,42.595,2.1208,1194552.9,109.1,2,3,3,16
122,89.571,1.0935,1158982.47,225.88,1,8,1,16
57,64.184,1.4499,1135106.67,168.88,3,4,5,16
82,75.452,1.2589,1105531.97,196.2,3,6,3,16
100,82.171,1.1721,1077149.08,293.37,2,2,10,8
55,62.973,1.4748,1042427.61,317.01,0,6,0,4
50,60.966,1.5185,924695.83,203.7,4,4,2,8
81,75.405,1.2596,911577.13,251.82,3,3,8,8
99,81.9,1.1753,903799.36,189.58,1,4,9,16
101,82.393,1.1695,886113.25,188.5,3,6,5,16
40,55.918,1.643,828762.96,123.72,1,2,7,16
70,68.648,1.3661,727989.63,145.25,2,6,2,16
79,75.091,1.264,722132.92,157.89,3,4,7,16
124,89.874,1.0906,712211.76,177.32,3,7,4,16
32,51.877,1.7611,666570.61,101.88,2,3,5,16
117,89.142,1.0976,648054.54,238.39,0,4,10,8
89,77.729,1.2276,600105.74,148.33,1,7,2,16
83,75.657,1.256,522557.02,191.23,4,4,6,8
52,62.344,1.4882,503890.81,154.14,0,2,8,8
116,88.873,1.1002,488140.56,146.11,3,4,9,16
104,82.734,1.1656,472663.06,138.06,2,6,6,16
78,75.08,1.2642,451862.31,353.2,0,0,10,2
114,88.277,1.1061,426243.39,272.23,0,8,0,4
30,48.149,1.8883,425954.83,74.82,2,4,2,16
73,71.17,1.3238,403280.66,112.13,1,2,9,16
107,83.05,1.1619,399882.62,180.05,3,7,0,8
25,45.382,1.9968,395170.77,95.3,1,1,6,8
108,83.92,1.1521,394464.47,127.32,1,3,10,16
56,63.951,1.4546,353913.93,93.93,2,3,7,16
68,68.21,1.3738,288496.56,90.83,4,5,1,16
74,71.832,1.3132,248556.05,88.83,4,5,3,16
112,86.095,1.1285,245069.17,101.9,5,6,1,16
93,78.648,1.2156,240125.03,133.99,0,2,10,8
115,88.524,1.1037,236541.19,101.53,1,2,11,16
106,82.91,1.1635,236362.65,138.27,5,5,4,8
121,89.501,1.0941,227540.79,100.05,5,6,3,16
92,78.374,1.2191,199021.09,86.01,2,3,9,16
95,78.872,1.2127,193305.04,85.2,4,5,5,16
90,77.729,1.2276,181791.62,115.46,5,5,2,8
43,56.422,1.6295,157386.01,54.47,2,5,1,16
118,89.152,1.0975,147748.65,80.49,4,5,7,16
85,75.981,1.2514,133931.71,137.43,5,5,0,4
59,64.559,1.4424,132297.57,58.02,2,4,6,16
47,60.418,1.5309,127879.29,53.03,2,5,3,16
39,54.812,1.6735,117711.37,45.58,1,5,2,16
110,84.762,1.1428,98505.47,64.02,3,7,2,16
86,76.871,1.2392,96937.04,83.52,1,1,10,8
65,67.984,1.3778,89843.25,50.52,2,5,5,16
98,79.5,1.2046,79105.38,54.85,4,6,2,16
71,70.205,1.3396,60855.39,42.97,1,5,6,16
94,78.659,1.2154,60026.73,47.38,2,5,7,16
60,64.868,1.4363,22102.14,33.71,0,6,2,8
97,79.216,1.2082,16888.66,35.74,0,6,6,8
125,89.979,1.0896,11330.16,31.64,0,8,2,8
26,45.773,1.9807,4928.63,10.75,3,3,2,8
53,62.62,1.4823,1822.04,9.31,3,3,6,8
123,89.571,1.0935,20.47,0.95,4,7,1,16
96,79.085,1.2099,8.27,0.56,2,7,1,16
103,82.533,1.1679,7.46,0.55,2,7,3,16
119,89.362,1.0955,6.34,0.53,2,7,5,16

File: Pbi2 Ref XRD.csv
No.,2Theta [°],d-spacing [Å],Int.,F,h,k,l,Mult.
3,25.963,3.4291,2022452.42,135.39,0,1,1,6
1,13.047,6.78,1835799.54,109.91,0,0,1,2
6,34.752,2.5794,1294340.82,148.06,0,1,2,6
8,39.223,2.295,1024490.35,150.49,-1,2,0,6
10,41.507,2.1738,677557.34,92.17,-1,2,1,12
13,46.168,1.9647,585420.64,136.57,-1,1,3,6
15,47.641,1.9073,395600.46,116.33,-2,2,1,6
18,53.393,1.7146,381692.89,130.09,-2,2,2,6
28,68.222,1.3736,368900.23,118.63,-1,3,2,12
26,63.355,1.4668,340003.82,105.22,-1,3,1,12
40,76,1.2512,273865.01,113.49,-2,3,3,12
43,82.572,1.1674,246027.86,114.86,-1,2,5,12
24,62.145,1.4925,242663.4,123.08,0,2,3,6
7,34.752,2.5794,221143.38,61.2,-1,1,2,6
22,59.214,1.5592,207722.07,107.9,-1,1,4,6
32,71.091,1.325,180578.93,122.39,0,3,0,6
30,68.8,1.3634,155630.74,77.73,-1,2,4,12
50,86.49,1.1243,150765.75,92.52,-2,3,4,12
44,84.333,1.1475,117479.16,113.81,-2,4,0,6
2,22.347,3.9751,116444.37,27.76,0,1,0,6
35,73.35,1.2897,111684.93,99.21,0,2,4,6
12,46.168,1.9647,102276.37,57.08,0,1,3,6
47,85.817,1.1314,89415.62,70.94,-2,4,1,12
17,53.393,1.7146,67383.07,54.66,0,2,2,6
34,72.648,1.3004,66785.89,76.02,-3,3,1,6
33,72.648,1.3004,66751.49,76,0,3,1,6
29,68.222,1.3736,65962.62,50.16,-2,3,2,12
31,69.231,1.356,64885.24,123.72,0,0,5,2
19,54.06,1.695,52710.97,84.93,0,0,4,2
39,76,1.2512,49145.19,48.08,-1,3,3,12
25,62.145,1.4925,43086.49,51.86,-2,2,3,6
4,25.963,3.4291,28846.65,16.17,-1,1,1,6
11,45.606,1.9875,22270.65,26.27,0,2,0,6
23,61.688,1.5024,19244.9,24.31,-1,3,0,12
48,85.95,1.13,14872.42,70.93,0,0,6,2
53,88.645,1.1025,8005.85,21.58,-1,4,0,12
37,73.77,1.2834,5911.44,22.95,0,1,5,6
38,73.77,1.2834,5902.3,22.93,-1,1,5,6
52,86.894,1.1201,4152.3,21.77,-2,2,5,6
51,86.894,1.1201,4139.75,21.73,0,2,5,6
14,47.641,1.9073,3452.51,10.87,0,2,1,6
27,63.355,1.4668,2537.78,9.09,-2,3,1,12
21,59.214,1.5592,1611.35,9.5,0,1,4,6
49,86.49,1.1243,901,7.15,-1,3,4,12
36,73.35,1.2897,764.8,8.21,-2,2,4,6
16,47.823,1.9005,275.31,2.18,-1,2,2,12
20,57.157,1.6103,245.53,2.52,-1,2,3,12
42,77.244,1.2341,86.22,2.89,-3,3,2,6
41,77.244,1.2341,85.5,2.88,0,3,2,6
45,84.737,1.143,85.25,3.07,0,3,3,6
46,84.737,1.143,84.65,3.06,-3,3,3,6
9,39.856,2.26,39.96,1.66,0,0,3,2
5,26.268,3.39,10.31,0.54,0,0,2,2